Participant ID,Gender,Age,Device Use,Final Dot Difference,Num Of Trials,Choice of Human,Choice of Algorithm,Block 4 Human Acc,Block 4 Algor Acc,Human Choice After Block 4,Algor Choice After Block 4,Top Box Chosen,Left Box Chosen,Preference Strength,Max Cj,Min Cj,Cj Range,Num of Unique Cj Values,Advice Ignored Trials,Mean Cj Change,Cj1 Mean Resolution,Cj2 Mean Resolution,Mean Cj1 Accuracy,Mean Cj2 Accuracy,Sway of Human Advice,Sway of Algor Advice,Mean RT1,Mean RT2,Mean CTC,AccQuant1,AccQuant2,AccQuant3,AccQuant4,AdvQuant1,AdvQuant2,AdvQuant3,AdvQuant4,CjQuant1,CjQuant2,CjQuant3,CjQuant4,Mean Cj1,Mean Cj2,St Dev Cj1,St Dev Cj2,Human Agreed %,Algor Agreed %,Algor Agreed % Diff,Human Agreed Conf Diff,Algor Agreed Conf Diff,Human Disagreed Conf Diff,Algor Disagreed Conf Diff,Algor Relative Influence,dd Block 1 End,dd Block 2 End,dd Block 3 End,Block 1 Accuracy,Block 2 Accuracy,Block 3 Accuracy,Block 4 Algor Choice
5e59bb355f26921d02b4ec5f,f,28,8,12,360,0.671,0.329,0.654,0.588,0.725,0.275,0.287,0.511,0.171,46,2,44,42,26,12.186,1.407,0.962,0.622,0.689,7.556,7.63,1.974,2.682,4.566,0.636,0.625,0.562,0.644,0.466,0.412,0.348,0.311,0.244,0.222,0.247,0.25,27.239,22.309,8.299,12.426,0.917,0.967,0.05,-7.122,-8.682,-12.0,15.5,-29.06,15,14,12,0.433,0.7,0.5,0.4
5a5459cce0cf3d0001260ebd,f,38,6,15,360,0.758,0.242,0.683,0.579,0.755,0.245,0.4,0.669,0.258,25,1,24,22,0,4.225,0.49,0.067,0.647,0.692,1.6,0.434,2.935,3.491,5.64,0.699,0.592,0.589,0.695,0.337,0.394,0.274,0.293,0.231,0.197,0.203,0.228,11.914,13.05,4.195,5.654,0.836,0.712,-0.124,-2.089,-0.944,0.6,3.353,-1.608,13,15,15,0.533,0.567,0.6,0.775
5e6011026e31c836f4ca5ac9,f,19,8,13,360,0.296,0.704,0.724,0.871,0.26,0.74,0.3,0.742,0.204,48,2,46,43,5,8.064,1.831,6.542,0.6,0.697,4.652,4.721,1.613,1.827,3.444,0.667,0.614,0.481,0.598,0.622,0.591,0.696,0.667,0.25,0.244,0.219,0.242,19.714,25.539,10.225,11.425,0.951,0.983,0.032,-5.953,-4.81,14.0,-1.0,16.144,15,15,13,0.567,0.6,0.467,0.475
5d36f9692fd5a4001ae5929f,f,22,8,10,360,0.562,0.438,0.727,0.711,0.615,0.385,0.442,0.414,0.062,37,1,36,27,66,5.525,0.922,2.135,0.711,0.706,2.172,3.273,2.038,2.205,3.993,0.811,0.619,0.708,0.736,0.514,0.413,0.446,0.46,0.206,0.175,0.181,0.242,6.033,9.593,5.542,11.569,0.717,0.717,0.0,-0.707,5.289,-5.706,-1.235,1.526,15,15,10,0.633,0.567,0.8,0.3
5da98138d11d560013a3d22d,f,25,9,7,360,0.608,0.392,0.647,0.692,0.61,0.39,0.308,0.522,0.108,50,1,49,50,18,9.122,1.525,6.181,0.661,0.694,0.783,2.14,8.27,2.272,4.285,0.714,0.644,0.578,0.705,0.481,0.437,0.398,0.386,0.214,0.242,0.231,0.244,29.803,31.663,11.482,10.999,0.814,0.836,0.023,-0.4,-2.0,4.545,-2.8,5.745,15,13,7,0.533,0.667,0.833,0.6
5c3ddbdc337ac90001a4e62e,f,23,6,15,360,0.45,0.55,0.56,0.686,0.465,0.535,0.317,0.517,0.05,23,1,22,22,13,3.417,1.302,2.239,0.8,0.781,0.482,0.483,1.836,2.267,4.286,0.874,0.764,0.728,0.835,0.563,0.491,0.543,0.544,0.242,0.153,0.225,0.219,9.567,10.34,3.608,4.884,0.767,0.783,0.017,-0.581,0.178,-0.154,1.538,-0.933,14,10,15,0.7,0.767,0.6,0.375
59bd9d713c45a10001ccca7a,f,31,9,15,360,0.092,0.908,0.538,0.681,0.095,0.905,0.475,0.703,0.408,48,2,46,44,1,8.406,2.499,0.812,0.742,0.753,0.525,1.443,2.861,2.88,4.875,0.793,0.744,0.57,0.864,0.817,0.756,0.779,0.761,0.228,0.228,0.239,0.244,20.2,22.054,10.124,12.661,0.678,0.705,0.027,-2.575,-1.535,7.053,8.556,-0.463,14,13,15,0.6,0.633,0.567,0.075
5e668f3107e41f04e1ff4a95,f,21,7,8,360,0.904,0.096,0.733,0.567,0.98,0.02,0.458,0.586,0.404,47,1,46,43,0,9.103,1.459,0.83,0.75,0.747,0.655,1.983,2.5,2.748,4.573,0.8,0.667,0.708,0.835,0.233,0.178,0.27,0.247,0.25,0.25,0.247,0.236,18.25,23.443,10.244,12.721,0.712,0.738,0.026,-1.61,-2.19,1.647,-1.438,2.504,14,10,8,0.6,0.8,0.767,0.525
5b59a51fca6d01000157a8c3,m,34,9,8,360,0.404,0.596,0.697,0.667,0.37,0.63,0.537,0.525,0.096,45,1,44,44,37,4.389,1.489,2.721,0.761,0.767,0.983,0.518,2.043,2.133,3.789,0.874,0.701,0.69,0.833,0.598,0.597,0.598,0.5,0.242,0.214,0.242,0.233,14.458,13.789,10.948,12.283,0.683,0.65,-0.033,0.39,-1.2,2.263,0.619,0.054,12,11,8,0.733,0.733,0.767,0.575
5bc0ae2c9dd2d9000112c0b6,m,40,7,15,360,0.533,0.467,0.667,0.567,0.54,0.46,0.454,0.394,0.033,50,3,47,48,89,3.347,8.307,13.394,0.711,0.733,0.552,0.155,3.363,2.241,3.862,0.905,0.575,0.57,0.773,0.488,0.494,0.477,0.455,0.233,0.242,0.239,0.244,27.606,29.98,13.942,13.505,0.783,0.8,0.017,1.067,0.319,-1.231,-2.182,0.204,14,15,15,0.333,0.533,0.533,0.5
5c38d2e708510f0001445b61,m,21,6,11.0,300,0.371,0.629,0.815,0.727,0.36,0.64,0.217,0.637,0.129,47.0,2.0,45.0,41,6,6.357,6.843,1.857,0.697,0.72,0.971,0.619,1.167,1.359,2.945,0.694,0.619,0.685,0.853,0.528,0.508,0.644,0.529,0.24,0.21,0.243,0.227,20.123,17.052,7.825,8.857,0.729,0.77,0.042,-2.7,-0.658,9.4,-0.25,11.692,13.0,8.0,11.0,0.667,0.8,0.667,0.425
5d40688398eff00001b7f3de,m,22,9,15.0,300,0.071,0.929,0.846,0.553,0.07,0.93,0.379,0.647,0.429,34.0,2.0,32.0,28,0,5.227,0.169,1.593,0.68,0.71,2.55,1.686,3.725,11.744,13.67,0.806,0.569,0.725,0.688,0.806,0.778,0.765,0.812,0.207,0.24,0.17,0.213,9.72,12.191,5.077,7.151,0.767,0.833,0.067,-3.333,-1.686,4.5,nan,nan,15.0,14.0,15.0,0.4,0.6,0.6,0.075
5c0f111d52bf070001d27721,m,20,9,9,360,0.917,0.083,0.706,0.731,0.98,0.02,0.483,0.628,0.417,50,6,44,37,45,16.853,2.87,5.241,0.731,0.717,0.837,1.436,1.744,1.774,3.508,0.828,0.63,0.699,0.774,0.149,0.148,0.325,0.238,0.242,0.225,0.231,0.233,34.739,33.812,10.377,17.782,0.733,0.75,0.017,0.0,-2.025,2.562,0.133,0.404,15,14,9,0.667,0.667,0.8,0.6
5e629c6ad154ce000d45fb63,f,21,4,15,360,0.8,0.2,0.795,0.714,0.81,0.19,0.425,0.678,0.3,39,3,36,35,73,3.747,1.848,2.961,0.728,0.706,0.927,0.481,2.255,2.731,4.66,0.759,0.706,0.641,0.782,0.278,0.329,0.333,0.276,0.219,0.236,0.217,0.242,18.469,17.781,7.441,9.149,0.729,0.738,0.009,-1.487,-0.833,6.812,3.438,4.029,13,15,15,0.667,0.633,0.667,0.75
5d504197f279ae000195bb85,m,34,9,8.0,300,0.075,0.925,0.625,0.833,0.02,0.98,0.4,0.59,0.425,31.0,1.0,30.0,26,193,1.177,0.079,0.507,0.69,0.683,0.167,0.857,2.848,3.216,5.256,0.753,0.592,0.8,0.793,0.767,0.837,1.0,0.724,0.243,0.163,0.017,0.193,6.407,6.251,6.355,6.577,0.6,0.5,-0.1,-0.118,0.483,-0.286,1.4,-1.085,15.0,10.0,8.0,0.533,0.733,0.733,0.35
5e0e925fff28a85e40514175,m,21,9,11,360,0.542,0.458,0.786,0.688,0.565,0.435,0.25,0.656,0.042,50,4,46,44,2,9.833,5.589,2.266,0.736,0.733,0.373,2.339,1.62,2.361,4.043,0.811,0.648,0.679,0.829,0.467,0.489,0.469,0.488,0.25,0.244,0.225,0.228,24.833,26.434,9.215,12.895,0.7,0.717,0.017,-0.634,0.333,2.667,6.941,-3.307,10,5,11,0.7,0.8,0.6,0.425
5de66395047da35de324deed,m,20,8,5,360,0.463,0.537,0.759,0.677,0.455,0.545,0.204,0.475,0.037,49,1,48,49,6,6.803,1.004,0.587,0.606,0.622,0.965,0.78,2.135,2.329,3.972,0.644,0.544,0.545,0.67,0.444,0.5,0.58,0.568,0.25,0.25,0.244,0.244,24.722,23.114,12.887,14.611,0.712,0.639,-0.073,0.525,-0.027,2.0,-2.045,3.493,14,12,5,0.533,0.733,0.833,0.5
5db396d5b449ad000cbfc38c,f,21,9,14,360,0.588,0.412,0.727,0.63,0.59,0.41,0.375,0.661,0.088,47,1,46,40,0,5.167,1.653,4.007,0.694,0.744,0.216,0.304,6.616,1.936,3.634,0.776,0.659,0.519,0.742,0.388,0.415,0.519,0.461,0.236,0.228,0.15,0.247,11.325,11.948,8.642,11.007,0.767,0.75,-0.017,-2.541,-1.951,5.929,4.2,2.318,8,12,14,0.8,0.633,0.633,0.575
5e3681557cbf7461513bc8f0,m,26,8,14,360,0.487,0.512,0.639,0.708,0.455,0.545,0.2,0.439,0.013,50,13,37,30,205,2.142,13.882,23.491,0.783,0.694,0.509,1.63,1.738,2.401,4.726,0.894,0.765,0.667,0.807,0.506,0.481,0.514,0.545,0.236,0.225,0.2,0.244,37.714,36.59,8.236,8.18,1.0,1.0,0.0,-0.509,-1.63,nan,nan,nan,12,12,14,0.733,0.7,0.633,0.65
5db29ce254945b003c8ef699,f,25,3,13,360,0.9,0.1,0.719,0.607,0.97,0.03,0.55,0.742,0.4,50,1,49,45,10,7.033,2.043,0.303,0.683,0.703,0.061,1.237,2.147,2.686,4.544,0.795,0.686,0.457,0.787,0.169,0.209,0.222,0.281,0.231,0.239,0.225,0.247,28.208,27.681,10.057,11.663,0.783,0.633,-0.15,-3.528,1.703,10.0,0.455,14.776,15,12,13,0.6,0.733,0.667,0.55
5e1482e0f82df8000d66665f,f,20,4,14,360,0.583,0.417,0.833,0.633,0.6,0.4,0.125,0.458,0.083,50,3,47,48,34,12.042,4.077,0.533,0.458,0.65,2.617,0.885,2.323,2.575,4.345,0.511,0.456,0.372,0.489,0.5,0.367,0.442,0.455,0.25,0.25,0.239,0.244,36.133,40.564,12.37,13.521,0.869,0.864,-0.004,-3.41,-0.068,1.25,-5.375,9.967,15,15,14,0.467,0.567,0.633,0.5
5c6d1972349b1f000104f83e,m,22,8,14,360,0.529,0.471,0.71,0.724,0.53,0.47,0.487,0.517,0.029,50,1,49,48,30,6.317,5.785,4.151,0.839,0.839,1.094,0.464,2.357,2.392,4.351,0.977,0.759,0.741,0.876,0.477,0.482,0.531,0.461,0.244,0.231,0.225,0.247,22.389,23.139,11.932,12.489,0.85,0.767,-0.083,1.409,-0.595,-0.444,-0.071,-2.377,11,14,14,0.667,0.6,0.667,0.525
5592fd82fdf99b59a8fb1e61,f,65,8,13,360,0.35,0.65,0.722,0.714,0.385,0.615,0.558,0.858,0.15,44,1,43,37,84,2.711,3.336,4.962,0.617,0.642,0.345,0.268,3.615,4.546,6.877,0.776,0.606,0.493,0.765,0.635,0.662,0.534,0.706,0.236,0.197,0.203,0.142,9.367,9.343,9.746,10.11,0.738,0.661,-0.077,-1.436,-2.27,4.688,3.632,0.222,15,14,13,0.5,0.533,0.633,0.175
59f0501a2f63d30001c902bd,f,26,3,8,360,0.683,0.317,0.657,0.56,0.695,0.305,0.529,0.567,0.183,43,2,41,39,4,4.986,1.772,1.917,0.758,0.753,1.683,0.441,1.943,2.022,3.689,0.892,0.688,0.605,0.864,0.398,0.388,0.457,0.295,0.231,0.222,0.225,0.244,17.378,17.456,8.672,10.38,0.6,0.667,0.067,-1.556,-0.026,-1.875,1.35,-1.695,11,12,8,0.7,0.7,0.8,0.625
5e3df34cfb9ed506f1028bb5,m,39,6,14,360,0.504,0.496,0.679,0.75,0.515,0.485,0.529,0.536,0.004,47,4,43,42,33,4.025,2.804,3.645,0.664,0.653,0.672,0.881,4.204,4.148,6.51,0.744,0.614,0.694,0.619,0.544,0.5,0.471,0.488,0.25,0.244,0.236,0.233,19.658,22.849,8.521,8.003,0.55,0.633,0.083,-0.839,-0.649,-0.481,-1.273,0.981,13,15,14,0.567,0.6,0.567,0.45
575341f0dcd903000606a800,f,22,6,15,360,0.529,0.471,0.725,0.75,0.485,0.515,0.479,0.575,0.029,40,1,39,39,24,5.878,0.498,2.324,0.808,0.825,0.228,1.218,2.198,2.514,4.269,0.908,0.766,0.627,0.938,0.368,0.416,0.542,0.543,0.242,0.214,0.231,0.225,14.825,14.865,8.46,10.528,0.683,0.85,0.167,-1.579,-1.587,2.474,0.667,1.799,13,12,15,0.667,0.667,0.633,0.75
5aea8ea1a110a00001f7e6a9,m,22,7,7,360,0.054,0.946,0.917,0.771,0.055,0.945,0.483,0.556,0.446,48,1,47,47,4,14.275,0.408,4.806,0.672,0.697,2.436,1.019,1.656,2.242,3.937,0.742,0.58,0.651,0.698,0.82,0.79,0.807,0.779,0.247,0.225,0.231,0.239,21.936,25.031,10.932,17.182,0.817,0.817,0.0,-3.318,-1.381,1.091,0.364,2.665,13,12,7,0.6,0.667,0.8,0.05
5dfcc5cf7dd4779b542dc38d,m,27,8,14,360,0.838,0.162,0.744,0.762,0.86,0.14,0.438,0.475,0.338,46,1,45,40,0,10.858,5.056,5.222,0.814,0.786,1.0,3.316,1.805,2.097,3.761,0.875,0.861,0.716,0.795,0.25,0.291,0.272,0.241,0.244,0.219,0.225,0.231,15.236,21.115,8.495,13.419,0.85,0.7,-0.15,2.067,-3.436,-4.333,-3.056,-6.78,14,12,14,0.567,0.7,0.667,0.725
5d175bfe7a5f6d001a64b545,m,31,8,10,360,0.108,0.892,0.733,0.733,0.1,0.9,0.4,0.475,0.392,43,14,29,27,13,4.292,0.408,3.462,0.689,0.714,0.722,1.661,1.279,1.674,3.252,0.678,0.686,0.735,0.655,0.713,0.843,0.691,0.805,0.242,0.194,0.189,0.242,28.781,27.524,4.71,6.039,0.729,0.738,0.009,-1.231,-0.775,0.6,-3.875,4.931,15,14,10,0.633,0.733,0.733,0.15
5e4ea83560c37d2eafb2ae3b,m,25,3,9,360,0.842,0.158,0.789,0.682,0.875,0.125,0.492,0.514,0.342,47,1,46,43,76,8.206,1.807,1.308,0.656,0.7,1.02,0.259,2.845,2.71,4.452,0.689,0.697,0.543,0.674,0.289,0.202,0.259,0.36,0.25,0.247,0.225,0.247,25.606,29.392,10.024,12.328,0.7,0.683,-0.017,-0.091,0.486,-2.722,-0.158,-1.988,12,15,9,0.733,0.5,0.733,0.675
5e23a2cb93a689642fffaa30,m,21,9,15,360,0.512,0.488,0.871,0.793,0.515,0.485,0.383,0.331,0.012,50,1,49,45,7,11.728,7.55,2.368,0.642,0.681,0.611,1.12,2.872,2.946,5.428,0.788,0.6,0.609,0.612,0.541,0.482,0.437,0.5,0.236,0.236,0.242,0.222,21.031,22.218,9.281,13.084,0.833,0.783,-0.05,2.911,-0.054,-10.889,-4.154,-9.7,14,14,15,0.6,0.633,0.567,0.5
5cc180984d7d8d001858d5e2,m,32,9,4,360,0.746,0.254,0.655,0.581,0.8,0.2,0.346,0.686,0.246,42,1,41,39,180,2.814,2.659,3.851,0.606,0.606,1.35,0.39,1.711,1.916,3.402,0.759,0.523,0.464,0.635,0.333,0.318,0.381,0.294,0.242,0.244,0.233,0.236,13.783,15.325,9.732,11.809,0.492,0.441,-0.051,-2.517,0.038,-0.258,0.667,1.631,13,14,4,0.7,0.633,0.9,0.475
56ce42d9465e580006846f57,m,52,9,13,360,0.004,0.996,0.7,0.66,0.005,0.995,0.512,0.572,0.496,22,1,21,21,77,3.781,1.371,2.616,0.764,0.786,1.947,2.596,2.223,2.181,4.027,0.866,0.691,0.689,0.85,0.829,0.818,0.82,0.925,0.228,0.153,0.169,0.111,4.086,7.39,3.87,8.172,0.6,0.767,0.167,-3.382,-2.953,0.174,-1.5,2.103,12,9,13,0.667,0.767,0.633,0.0
5c8566ba0d4ac0000196d065,m,27,3,14,360,0.529,0.471,0.594,0.607,0.525,0.475,0.171,0.497,0.029,35,1,34,28,2,8.583,2.422,0.857,0.786,0.783,0.278,0.254,2.217,2.857,4.473,0.882,0.78,0.675,0.782,0.459,0.402,0.506,0.483,0.236,0.228,0.214,0.242,10.317,14.325,5.671,10.388,0.75,0.733,-0.017,0.308,0.0,0.2,-0.938,0.83,13,12,14,0.533,0.6,0.6,0.55
5dfd52e3b63853a4125bd77d,f,21,9,15,360,0.921,0.079,0.692,0.619,0.96,0.04,0.442,0.269,0.421,32,1,31,31,2,7.053,5.261,3.831,0.636,0.681,2.339,0.714,2.331,2.616,4.302,0.833,0.544,0.486,0.675,0.267,0.203,0.176,0.225,0.25,0.219,0.206,0.222,13.594,14.421,5.421,8.884,0.883,0.683,-0.2,-1.98,0.541,-4.857,-3.158,0.821,11,15,15,0.533,0.533,0.533,0.725
5c6400cbcb937d00012d8866,m,34,5,12,360,0.471,0.529,0.72,0.743,0.485,0.515,0.463,0.478,0.029,50,2,48,49,2,3.953,4.764,0.663,0.767,0.808,1.814,1.443,2.92,3.177,5.111,0.885,0.686,0.651,0.847,0.356,0.616,0.605,0.494,0.242,0.239,0.239,0.236,27.206,27.842,14.296,15.217,0.627,0.721,0.094,-1.378,0.114,-2.545,-5.471,4.417,14,12,12,0.633,0.733,0.7,0.4
5bfdca7233f05f00016234fb,m,25,8,10,360,0.504,0.496,0.692,0.706,0.52,0.48,0.4,0.653,0.004,50,2,48,47,4,12.739,0.169,1.695,0.7,0.714,1.912,3.226,1.734,2.133,3.713,0.816,0.607,0.641,0.784,0.425,0.548,0.462,0.5,0.242,0.233,0.217,0.244,18.35,25.207,11.133,16.869,0.65,0.717,0.067,-1.694,-5.028,-2.286,0.588,-6.207,15,10,10,0.633,0.8,0.7,0.425
5dafea4de40355001651fa2f,m,25,5,10.0,300,0.388,0.613,0.808,0.853,0.385,0.615,0.108,0.503,0.112,43.0,2.0,41.0,37,4,8.377,1.091,1.654,0.67,0.613,1.511,1.881,1.847,2.052,3.85,0.635,0.736,0.603,0.712,0.5,0.458,0.575,0.548,0.247,0.24,0.243,0.243,21.05,17.38,8.147,8.709,0.6,0.683,0.083,-1.176,-2.848,-2.385,1.667,-5.723,15.0,13.0,10.0,0.633,0.7,0.767,0.4
5e4bc0c29b9a2e01310c6506,f,47,4,14.0,300,0.05,0.95,0.5,0.696,0.045,0.955,0.379,0.63,0.45,38.0,1.0,37.0,30,47,9.587,0.94,3.212,0.767,0.793,0.08,0.979,2.178,2.558,4.357,0.868,0.729,0.778,0.903,0.853,0.812,0.889,0.758,0.227,0.16,0.03,0.207,6.73,13.635,6.982,15.143,0.59,0.492,-0.099,-1.514,-3.63,3.267,2.6,-1.449,12.0,15.0,14.0,0.667,0.633,0.7,0.075
5c916456ec114b0016418dca,m,20,6,13,360,0.158,0.842,0.769,0.735,0.11,0.89,0.55,0.475,0.342,50,1,49,38,9,5.825,8.156,10.724,0.828,0.831,1.158,1.186,1.666,2.313,4.12,0.94,0.78,0.776,0.802,0.738,0.732,0.658,0.791,0.233,0.228,0.211,0.239,22.631,23.543,6.476,8.224,0.733,0.683,-0.05,-0.415,-1.525,-3.062,-0.474,-3.699,11,12,13,0.767,0.6,0.7,0.4
59e0be41d838ae0001850712,f,31,5,11,360,0.617,0.383,0.688,0.571,0.625,0.375,0.483,0.583,0.117,34,2,32,30,0,5.586,0.663,0.884,0.675,0.694,1.632,1.053,2.008,2.108,3.929,0.728,0.607,0.634,0.744,0.358,0.405,0.512,0.419,0.225,0.233,0.228,0.239,12.442,13.657,5.695,8.729,0.733,0.65,-0.083,-2.683,-1.639,1.062,-0.048,2.154,14,11,11,0.567,0.667,0.733,0.575
5be1c4f8397d120001a01d76,m,22,9,15,360,0.633,0.367,0.724,0.645,0.665,0.335,0.275,0.497,0.133,50,1,49,37,180,3.447,7.354,10.465,0.786,0.828,0.214,0.153,1.406,1.515,2.919,0,0.724,0.607,0,0,0.299,0.512,0,0,0.242,0.233,0,35.25,38.621,18.661,16.242,0.733,0.8,0.067,0.25,0.17,0.125,0.083,-0.038,14,14,15,0.567,0.633,0.7,0.475
5df2235d5a34251266ea645e,m,22,9,13,360,0.704,0.296,0.71,0.69,0.74,0.26,0.367,0.739,0.204,49,1,48,44,1,9.717,0.264,3.171,0.631,0.669,0.135,3.841,2.011,1.825,3.514,0.709,0.582,0.57,0.682,0.392,0.43,0.443,0.216,0.219,0.219,0.219,0.244,21.903,19.946,8.782,11.164,0.82,0.814,-0.006,0.098,2.971,-1.0,6.8,-4.927,13,12,13,0.567,0.733,0.7,0.525
5e4e86b070e1ed2d6e4e3f62,m,25,5,15,360,0.396,0.604,0.759,0.774,0.38,0.62,0.617,0.719,0.104,50,6,44,19,202,1.461,0.567,8.341,0.597,0.667,0.094,0.48,1.887,1.688,3.308,0,0,0.573,0.633,0,0,0.629,0.6,0,0,0.247,0.25,47.586,46.958,4.474,5.361,0.717,0.683,-0.033,-0.056,0.219,0.412,0.944,-0.258,15,14,15,0.4,0.567,0.567,0.475
5d531cd93c38f100016b53f9,m,40,9,14,360,0.5,0.5,0.667,0.667,0.5,0.5,0.087,0.492,0.0,50,3,47,47,179,1.886,6.382,5.723,0.803,0.806,0.073,0.033,2.231,2.291,4.072,0.875,0.793,0.723,0.795,0.42,0.529,0.578,0.489,0.244,0.242,0.231,0.244,27.225,27.35,12.602,12.836,0.627,0.721,0.094,0.514,0.0,-1.1,-0.118,-1.497,14,15,14,0.733,0.633,0.7,0.5
5c6709bb5aa5610001dd6cfc,f,22,6,7,360,0.537,0.463,0.63,0.667,0.56,0.44,0.092,0.511,0.037,19,2,17,18,97,1.975,0.537,0.812,0.594,0.706,0.436,0.733,1.684,1.785,3.487,0.61,0.602,0.552,0.616,0.519,0.506,0.425,0.411,0.214,0.231,0.242,0.203,10.164,10.682,3.351,4.118,0.783,0.767,-0.017,-0.643,-1.0,0.231,-0.143,0.016,12,11,7,0.5,0.567,0.8,0.425
5c741cdd2af891001707e1e8,f,31,9,9,360,0.433,0.567,0.696,0.703,0.46,0.54,0.171,0.6,0.067,23,1,22,21,26,3.367,0.45,0.464,0.608,0.658,0.298,0.172,1.759,2.286,3.918,0.688,0.559,0.444,0.675,0.662,0.529,0.444,0.575,0.222,0.189,0.175,0.222,5.453,6.251,3.783,5.86,0.6,0.6,0.0,-0.879,-0.118,1.917,-0.25,2.928,11,13,9,0.7,0.667,0.8,0.3
5c60792cced0b900018cbe77,f,22,2,12,360,0.371,0.629,0.63,0.606,0.36,0.64,0.558,0.225,0.129,50,2,48,49,85,3.114,1.023,2.724,0.631,0.75,2.286,2.789,2.241,2.25,4.152,0.835,0.417,0.662,0.663,0.694,0.607,0.571,0.512,0.236,0.233,0.214,0.239,16.506,15.247,12.609,13.027,0.797,0.82,0.023,-2.773,-2.543,-0.5,-3.818,3.547,11,11,12,0.667,0.7,0.667,0.425
5cabd60c4311a70001cfcc14,m,27,6,6,360,0.321,0.679,0.857,0.783,0.365,0.635,0.537,0.639,0.179,50,1,49,50,0,11.736,2.615,0.77,0.7,0.733,3.071,2.782,1.681,1.757,3.346,0.75,0.667,0.625,0.775,0.659,0.615,0.557,0.674,0.244,0.217,0.244,0.247,24.958,31.241,12.752,13.32,0.683,0.717,0.033,-5.405,-3.737,1.474,-0.647,3.789,12,10,6,0.733,0.767,0.767,0.1
5db6ff8c7f9e6b000dd24a19,m,34,7,15,360,0.212,0.787,0.609,0.568,0.19,0.81,0.471,0.55,0.288,50,3,47,46,19,4.831,3.56,4.456,0.65,0.664,0.35,0.847,3.787,4.313,6.802,0.742,0.674,0.564,0.659,0.753,0.663,0.641,0.706,0.247,0.239,0.217,0.236,19.483,21.924,9.884,9.659,0.633,0.717,0.083,0.447,-0.762,0.182,-1.059,0.031,11,15,15,0.667,0.533,0.633,0.325
5e25b9d13da41b02348ec39e,m,58,6,14.0,120,0.304,0.696,0.681,0.692,0.185,0.815,0.167,0.5,0.196,50.0,7.0,43.0,38,24,8.425,5.658,5.478,0.725,0.783,1.7,1.3,2.005,2.407,4.236,0.867,0.667,0.556,0.821,0.2,0.133,0.259,0.321,0.25,0.25,0.225,0.233,28.225,36.197,10.374,10.483,0.267,0.267,0.0,-2.062,2.25,-0.25,-2.5,6.562,15.0,11.0,14.0,0.533,0.7,0.6,0.9
5e5912f6ff7f7b121cf4e6b1,m,25,8,10,360,0.317,0.683,0.688,0.682,0.35,0.65,0.271,0.453,0.183,47,3,44,42,115,1.544,1.384,1.495,0.722,0.747,0.051,0.051,1.427,1.423,2.961,0.779,0.663,0.72,0.761,0.593,0.675,0.634,0.591,0.239,0.231,0.228,0.244,23.769,24.879,8.862,8.21,0.683,0.633,-0.05,-0.05,0.162,0.263,-0.136,0.612,4,12,10,0.9,0.567,0.767,0.15
5e5554bb2f1d9c56332af459,f,37,5,7,360,0.829,0.171,0.75,0.625,0.82,0.18,0.496,0.644,0.329,47,1,46,36,47,4.467,2.276,0.801,0.661,0.689,0.964,0.768,1.894,2.053,3.944,0.644,0.615,0.571,0.81,0.253,0.308,0.345,0.228,0.242,0.181,0.233,0.219,10.756,12.428,8.273,10.939,0.75,0.683,-0.067,-1.951,-1.162,1.733,0.0,2.522,11,9,7,0.767,0.767,0.733,0.875
5d6e9abe5e156a00018de2bc,f,32,9,11,360,0.5,0.5,0.711,0.636,0.46,0.54,0.254,0.522,0.0,49,7,42,41,4,11.975,0.097,1.731,0.747,0.756,1.431,0.814,1.729,1.869,3.502,0.818,0.628,0.757,0.779,0.466,0.551,0.473,0.477,0.244,0.217,0.206,0.239,24.033,33.646,7.956,12.376,0.695,0.738,0.043,-4.05,-0.837,4.389,5.25,2.352,11,13,11,0.767,0.6,0.6,0.7
5b85544331eb7b0001efd72e,f,43,9,13,360,0.392,0.608,0.536,0.594,0.38,0.62,0.379,0.408,0.108,45,1,44,43,0,8.531,4.749,4.086,0.633,0.683,1.519,1.667,2.601,3.217,5.161,0.736,0.615,0.538,0.682,0.598,0.513,0.59,0.565,0.242,0.217,0.217,0.236,15.881,20.336,9.287,13.55,0.689,0.661,-0.028,-1.2,-0.865,-2.105,-3.15,1.38,14,15,13,0.7,0.633,0.667,0.45
5dcfaad2dd9a740c2493fc28,m,30,5,11,360,0.417,0.583,0.696,0.649,0.435,0.565,0.438,0.633,0.083,50,5,45,45,24,5.489,6.697,4.86,0.669,0.692,0.618,0.232,1.55,1.803,3.439,0.651,0.64,0.625,0.761,0.57,0.472,0.636,0.58,0.239,0.247,0.244,0.244,29.883,31.481,13.072,14.19,0.683,0.683,0.0,-0.889,-0.892,-0.105,2.421,-2.529,13,11,11,0.6,0.733,0.7,0.325
59b53d8ed98aab00019bb17f,f,31,9,15.0,60,0.033,0.967,0.526,0.707,0.0,1.0,0.071,0.55,0.467,21.0,4.0,17.0,18,9,2.867,1.114,0.976,0.733,0.683,2.75,0.875,1.244,2.098,3.803,0.769,0.818,0.417,0.929,0.692,0.727,0.75,0.643,0.217,0.183,0.2,0.233,11.367,11.143,4.203,4.651,0.131,0.153,0.021,-1.6,-0.875,-4.667,nan,nan,13.0,12.0,15.0,0.667,0.533,0.6,0.2
5dc81319f375a959ed0ae171,m,31,3,15.0,300,0.388,0.613,0.656,0.786,0.355,0.645,0.479,0.733,0.112,45.0,19.0,26.0,27,16,3.04,6.797,0.64,0.467,0.493,0.667,0.143,7.906,1.726,3.342,0.52,0.423,0.508,0.378,0.547,0.479,0.475,0.541,0.25,0.237,0.203,0.247,35.09,34.176,5.204,5.167,0.583,0.583,0.0,0.92,-0.36,0.214,0.4,-1.466,15.0,14.0,15.0,0.433,0.4,0.533,0.55
